File: analysis-scripts/crystal_redox_state/pl mmcpd 1july22 1758h.tsv
7/1/2022 7:15 PM
Wavelength (nm)	10mm Absorbance
//WLCalib: Shift 	0.02667
//WLCalib: 261S 	-0.20000
//WLCalib: 362S 	-0.07000
//WLCalib: 484S 	0.20000
//WLCalib: 529S 	0.26000
//WLCalib: 823S 	-0.41000
//QSpecEnd:
190.0	0.559
190.5	0.553
191.0	0.554
191.5	0.540
192.0	0.533
192.5	0.538
193.0	0.565
193.5	0.551
194.0	0.547
194.5	0.524
195.0	0.523
195.5	0.493
196.0	0.439
196.5	0.418
197.0	0.398
197.5	0.379
198.0	0.372
198.5	0.348
199.0	0.346
199.5	0.351
200.0	0.357
200.5	0.322
201.0	0.307
201.5	0.337
202.0	0.370
202.5	0.413
203.0	0.501
203.5	0.581
204.0	0.655
204.5	0.746
205.0	0.822
205.5	0.878
206.0	0.954
206.5	1.035
207.0	1.107
207.5	1.185
208.0	1.262
208.5	1.300
209.0	1.351
209.5	1.402
210.0	1.443
210.5	1.487
211.0	1.528
211.5	1.570
212.0	1.611
212.5	1.648
213.0	1.682
213.5	1.713
214.0	1.741
214.5	1.766
215.0	1.790
215.5	1.814
216.0	1.837
216.5	1.860
217.0	1.881
217.5	1.900
218.0	1.918
218.5	1.936
219.0	1.953
219.5	1.970
220.0	1.986
220.5	2.003
221.0	2.021
221.5	2.038
222.0	2.056
222.5	2.073
223.0	2.091
223.5	2.112
224.0	2.136
224.5	2.164
225.0	2.198
225.5	2.240
226.0	2.295
226.5	2.366
227.0	2.450
227.5	2.539
228.0	2.624
228.5	2.697
229.0	2.753
229.5	2.786
230.0	2.795
230.5	2.782
231.0	2.757
231.5	2.727
232.0	2.696
232.5	2.669
233.0	2.646
233.5	2.629
234.0	2.620
234.5	2.617
235.0	2.614
235.5	2.608
236.0	2.599
236.5	2.587
237.0	2.573
237.5	2.558
238.0	2.542
238.5	2.529
239.0	2.521
239.5	2.522
240.0	2.534
240.5	2.560
241.0	2.598
241.5	2.641
242.0	2.682
242.5	2.711
243.0	2.723
243.5	2.716
244.0	2.691
244.5	2.667
245.0	2.657
245.5	2.671
246.0	2.704
246.5	2.751
247.0	2.798
247.5	2.835
248.0	2.849
248.5	2.836
249.0	2.797
249.5	2.748
250.0	2.704
250.5	2.672
251.0	2.656
251.5	2.653
252.0	2.658
252.5	2.662
253.0	2.658
253.5	2.642
254.0	2.622
254.5	2.576
255.0	2.537
255.5	2.510
256.0	2.498
256.5	2.498
257.0	2.509
257.5	2.529
258.0	2.563
258.5	2.610
259.0	2.660
259.5	2.697
260.0	2.729
260.5	2.743
261.0	2.732
261.5	2.698
262.0	2.646
262.5	2.586
263.0	2.528
263.5	2.481
264.0	2.444
264.5	2.420
265.0	2.409
265.5	2.412
266.0	2.418
266.5	2.428
267.0	2.441
267.5	2.453
268.0	2.462
268.5	2.465
269.0	2.462
269.5	2.467
270.0	2.487
270.5	2.523
271.0	2.556
271.5	2.592
272.0	2.624
272.5	2.646
273.0	2.654
273.5	2.646
274.0	2.629
274.5	2.617
275.0	2.616
275.5	2.626
276.0	2.630
276.5	2.645
277.0	2.655
277.5	2.649
278.0	2.642
278.5	2.634
279.0	2.629
279.5	2.631
280.0	2.641
280.5	2.657
281.0	2.679
281.5	2.714
282.0	2.727
282.5	2.730
283.0	2.730
283.5	2.724
284.0	2.714
284.5	2.702
285.0	2.695
285.5	2.695
286.0	2.701
286.5	2.704
287.0	2.698
287.5	2.685
288.0	2.669
288.5	2.647
289.0	2.632
289.5	2.629
290.0	2.630
290.5	2.638
291.0	2.655
291.5	2.684
292.0	2.671
292.5	2.635
293.0	2.572
293.5	2.487
294.0	2.380
294.5	2.250
295.0	2.108
295.5	1.966
296.0	1.841
296.5	1.723
297.0	1.589
297.5	1.478
298.0	1.378
298.5	1.292
299.0	1.206
299.5	1.130
300.0	1.061
300.5	0.994
301.0	0.932
301.5	0.876
302.0	0.824
302.5	0.775
303.0	0.729
303.5	0.687
304.0	0.647
304.5	0.610
305.0	0.576
305.5	0.543
306.0	0.514
306.5	0.487
307.0	0.461
307.5	0.439
308.0	0.418
308.5	0.400
309.0	0.384
309.5	0.370
310.0	0.356
310.5	0.344
311.0	0.333
311.5	0.324
312.0	0.315
312.5	0.307
313.0	0.300
313.5	0.294
314.0	0.288
314.5	0.282
315.0	0.276
315.5	0.271
316.0	0.266
316.5	0.261
317.0	0.257
317.5	0.253
318.0	0.249
318.5	0.246
319.0	0.242
319.5	0.239
320.0	0.237
320.5	0.234
321.0	0.231
321.5	0.229
322.0	0.227
322.5	0.226
323.0	0.224
323.5	0.223
324.0	0.221
324.5	0.220
325.0	0.219
325.5	0.217
326.0	0.216
326.5	0.215
327.0	0.214
327.5	0.213
328.0	0.212
328.5	0.211
329.0	0.210
329.5	0.209
330.0	0.210
330.5	0.209
331.0	0.209
331.5	0.209
332.0	0.209
332.5	0.209
333.0	0.209
333.5	0.209
334.0	0.209
334.5	0.209
335.0	0.209
335.5	0.210
336.0	0.210
336.5	0.210
337.0	0.211
337.5	0.212
338.0	0.212
338.5	0.213
339.0	0.213
339.5	0.214
340.0	0.215
340.5	0.215
341.0	0.216
341.5	0.216
342.0	0.217
342.5	0.217
343.0	0.218
343.5	0.218
344.0	0.219
344.5	0.221
345.0	0.222
345.5	0.223
346.0	0.223
346.5	0.224
347.0	0.224
347.5	0.225
348.0	0.225
348.5	0.226
349.0	0.226
349.5	0.228
350.0	0.228
350.5	0.230
351.0	0.230
351.5	0.231
352.0	0.232
352.5	0.232
353.0	0.233
353.5	0.233
354.0	0.234
354.5	0.234
355.0	0.235
355.5	0.236
356.0	0.236
356.5	0.237
357.0	0.238
357.5	0.238
358.0	0.239
358.5	0.239
359.0	0.239
359.5	0.239
360.0	0.240
360.5	0.240
361.0	0.240
361.5	0.241
362.0	0.242
362.5	0.242
363.0	0.243
363.5	0.243
364.0	0.242
364.5	0.242
365.0	0.241
365.5	0.240
366.0	0.240
366.5	0.239
367.0	0.239
367.5	0.239
368.0	0.238
368.5	0.238
369.0	0.237
369.5	0.236
370.0	0.236
370.5	0.235
371.0	0.235
371.5	0.234
372.0	0.233
372.5	0.233
373.0	0.232
373.5	0.231
374.0	0.230
374.5	0.230
375.0	0.228
375.5	0.228
376.0	0.227
376.5	0.227
377.0	0.226
377.5	0.225
378.0	0.224
378.5	0.222
379.0	0.221
379.5	0.220
380.0	0.218
380.5	0.217
381.0	0.215
381.5	0.214
382.0	0.212
382.5	0.211
383.0	0.210
383.5	0.208
384.0	0.207
384.5	0.206
385.0	0.205
385.5	0.203
386.0	0.201
386.5	0.200
387.0	0.199
387.5	0.197
388.0	0.195
388.5	0.194
389.0	0.192
389.5	0.190
390.0	0.189
390.5	0.187
391.0	0.186
391.5	0.184
392.0	0.183
392.5	0.181
393.0	0.180
393.5	0.178
394.0	0.176
394.5	0.174
395.0	0.172
395.5	0.171
396.0	0.169
396.5	0.167
397.0	0.165
397.5	0.163
398.0	0.162
398.5	0.160
399.0	0.159
399.5	0.158
400.0	0.156
400.5	0.155
401.0	0.154
401.5	0.153
402.0	0.151
402.5	0.150
403.0	0.149
403.5	0.148
404.0	0.146
404.5	0.145
405.0	0.144
405.5	0.143
406.0	0.142
406.5	0.140
407.0	0.139
407.5	0.138
408.0	0.137
408.5	0.136
409.0	0.135
409.5	0.134
410.0	0.133
410.5	0.132
411.0	0.131
411.5	0.130
412.0	0.129
412.5	0.128
413.0	0.127
413.5	0.126
414.0	0.125
414.5	0.124
415.0	0.124
415.5	0.123
416.0	0.122
416.5	0.122
417.0	0.121
417.5	0.120
418.0	0.120
418.5	0.119
419.0	0.118
419.5	0.118
420.0	0.117
420.5	0.117
421.0	0.116
421.5	0.116
422.0	0.115
422.5	0.114
423.0	0.113
423.5	0.112
424.0	0.111
424.5	0.111
425.0	0.111
425.5	0.111
426.0	0.110
426.5	0.109
427.0	0.107
427.5	0.106
428.0	0.105
428.5	0.105
429.0	0.104
429.5	0.103
430.0	0.103
430.5	0.102
431.0	0.101
431.5	0.100
432.0	0.099
432.5	0.098
433.0	0.098
433.5	0.097
434.0	0.097
434.5	0.097
435.0	0.096
435.5	0.096
436.0	0.095
436.5	0.094
437.0	0.093
437.5	0.093
438.0	0.092
438.5	0.091
439.0	0.091
439.5	0.091
440.0	0.091
440.5	0.090
441.0	0.090
441.5	0.089
442.0	0.089
442.5	0.088
443.0	0.088
443.5	0.087
444.0	0.087
444.5	0.086
445.0	0.086
445.5	0.086
446.0	0.085
446.5	0.084
447.0	0.084
447.5	0.083
448.0	0.082
448.5	0.082
449.0	0.081
449.5	0.081
450.0	0.080
450.5	0.080
451.0	0.079
451.5	0.079
452.0	0.078
452.5	0.078
453.0	0.078
453.5	0.077
454.0	0.077
454.5	0.076
455.0	0.076
455.5	0.075
456.0	0.074
456.5	0.074
457.0	0.073
457.5	0.073
458.0	0.073
458.5	0.073
459.0	0.073
459.5	0.072
460.0	0.072
460.5	0.072
461.0	0.072
461.5	0.071
462.0	0.070
462.5	0.070
463.0	0.069
463.5	0.068
464.0	0.067
464.5	0.067
465.0	0.066
465.5	0.066
466.0	0.066
466.5	0.066
467.0	0.066
467.5	0.065
468.0	0.065
468.5	0.064
469.0	0.064
469.5	0.064
470.0	0.064
470.5	0.064
471.0	0.064
471.5	0.063
472.0	0.063
472.5	0.062
473.0	0.062
473.5	0.062
474.0	0.062
474.5	0.061
475.0	0.061
475.5	0.061
476.0	0.061
476.5	0.060
477.0	0.060
477.5	0.059
478.0	0.059
478.5	0.059
479.0	0.058
479.5	0.058
480.0	0.058
480.5	0.057
481.0	0.057
481.5	0.057
482.0	0.057
482.5	0.058
483.0	0.058
483.5	0.058
484.0	0.058
484.5	0.058
485.0	0.058
485.5	0.058
486.0	0.058
486.5	0.058
487.0	0.058
487.5	0.058
488.0	0.057
488.5	0.057
489.0	0.056
489.5	0.056
490.0	0.056
490.5	0.056
491.0	0.055
491.5	0.056
492.0	0.055
492.5	0.055
493.0	0.055
493.5	0.054
494.0	0.054
494.5	0.054
495.0	0.053
495.5	0.053
496.0	0.053
496.5	0.053
497.0	0.053
497.5	0.052
498.0	0.052
498.5	0.051
499.0	0.051
499.5	0.051
500.0	0.051
500.5	0.051
501.0	0.051
501.5	0.051
502.0	0.050
502.5	0.050
503.0	0.049
503.5	0.049
504.0	0.049
504.5	0.049
505.0	0.049
505.5	0.049
506.0	0.050
506.5	0.050
507.0	0.050
507.5	0.049
508.0	0.049
508.5	0.048
509.0	0.048
509.5	0.048
510.0	0.047
510.5	0.047
511.0	0.047
511.5	0.047
512.0	0.047
512.5	0.047
513.0	0.047
513.5	0.047
514.0	0.047
514.5	0.047
515.0	0.046
515.5	0.046
516.0	0.046
516.5	0.046
517.0	0.046
517.5	0.046
518.0	0.046
518.5	0.046
519.0	0.046
519.5	0.046
520.0	0.045
520.5	0.045
521.0	0.045
521.5	0.045
522.0	0.044
522.5	0.044
523.0	0.043
523.5	0.043
524.0	0.044
524.5	0.044
525.0	0.044
525.5	0.044
526.0	0.045
526.5	0.045
527.0	0.045
527.5	0.045
528.0	0.045
528.5	0.045
529.0	0.045
529.5	0.045
530.0	0.044
530.5	0.044
531.0	0.043
531.5	0.042
532.0	0.042
532.5	0.041
533.0	0.041
533.5	0.041
534.0	0.042
534.5	0.042
535.0	0.041
535.5	0.041
536.0	0.041
536.5	0.041
537.0	0.040
537.5	0.040
538.0	0.040
538.5	0.040
539.0	0.039
539.5	0.040
540.0	0.040
540.5	0.041
541.0	0.041
541.5	0.042
542.0	0.042
542.5	0.041
543.0	0.041
543.5	0.041
544.0	0.040
544.5	0.040
545.0	0.040
545.5	0.040
546.0	0.040
546.5	0.039
547.0	0.039
547.5	0.039
548.0	0.038
548.5	0.038
549.0	0.038
549.5	0.037
550.0	0.037
550.5	0.037
551.0	0.037
551.5	0.037
552.0	0.037
552.5	0.038
553.0	0.038
553.5	0.037
554.0	0.037
554.5	0.037
555.0	0.037
555.5	0.037
556.0	0.037
556.5	0.037
557.0	0.037
557.5	0.036
558.0	0.036
558.5	0.035
559.0	0.034
559.5	0.033
560.0	0.034
560.5	0.034
561.0	0.035
561.5	0.036
562.0	0.036
562.5	0.037
563.0	0.036
563.5	0.036
564.0	0.036
564.5	0.036
565.0	0.036
565.5	0.036
566.0	0.036
566.5	0.036
567.0	0.036
567.5	0.036
568.0	0.036
568.5	0.036
569.0	0.037
569.5	0.037
570.0	0.037
570.5	0.036
571.0	0.037
571.5	0.036
572.0	0.036
572.5	0.036
573.0	0.036
573.5	0.036
574.0	0.036
574.5	0.036
575.0	0.036
575.5	0.036
576.0	0.035
576.5	0.035
577.0	0.035
577.5	0.035
578.0	0.035
578.5	0.035
579.0	0.035
579.5	0.035
580.0	0.035
580.5	0.035
581.0	0.035
581.5	0.034
582.0	0.034
582.5	0.035
583.0	0.035
583.5	0.035
584.0	0.035
584.5	0.035
585.0	0.034
585.5	0.034
586.0	0.033
586.5	0.033
587.0	0.034
587.5	0.034
588.0	0.035
588.5	0.035
589.0	0.034
589.5	0.035
590.0	0.035
590.5	0.035
591.0	0.035
591.5	0.035
592.0	0.035
592.5	0.034
593.0	0.034
593.5	0.033
594.0	0.033
594.5	0.033
595.0	0.033
595.5	0.033
596.0	0.034
596.5	0.034
597.0	0.034
597.5	0.034
598.0	0.034
598.5	0.033
599.0	0.033
599.5	0.033
600.0	0.032
600.5	0.032
601.0	0.032
601.5	0.032
602.0	0.032
602.5	0.032
603.0	0.033
603.5	0.033
604.0	0.033
604.5	0.033
605.0	0.032
605.5	0.032
606.0	0.032
606.5	0.032
607.0	0.032
607.5	0.032
608.0	0.032
608.5	0.032
609.0	0.032
609.5	0.031
610.0	0.031
610.5	0.031
611.0	0.031
611.5	0.031
612.0	0.031
612.5	0.031
613.0	0.031
613.5	0.031
614.0	0.031
614.5	0.030
615.0	0.030
615.5	0.030
616.0	0.030
616.5	0.029
617.0	0.029
617.5	0.029
618.0	0.029
618.5	0.029
619.0	0.029
619.5	0.029
620.0	0.030
620.5	0.029
621.0	0.029
621.5	0.028
622.0	0.028
622.5	0.027
623.0	0.027
623.5	0.027
624.0	0.027
624.5	0.028
625.0	0.029
625.5	0.029
626.0	0.030
626.5	0.030
627.0	0.030
627.5	0.030
628.0	0.030
628.5	0.030
629.0	0.029
629.5	0.028
630.0	0.028
630.5	0.028
631.0	0.027
631.5	0.028
632.0	0.028
632.5	0.028
633.0	0.028
633.5	0.028
634.0	0.028
634.5	0.027
635.0	0.027
635.5	0.025
636.0	0.025
636.5	0.026
637.0	0.026
637.5	0.026
638.0	0.026
638.5	0.026
639.0	0.027
639.5	0.027
640.0	0.026
640.5	0.026
641.0	0.026
641.5	0.026
642.0	0.026
642.5	0.025
643.0	0.024
643.5	0.024
644.0	0.023
644.5	0.023
645.0	0.023
645.5	0.023
646.0	0.024
646.5	0.024
647.0	0.025
647.5	0.025
648.0	0.024
648.5	0.024
649.0	0.023
649.5	0.023
650.0	0.022
650.5	0.022
651.0	0.021
651.5	0.020
652.0	0.020
652.5	0.020
653.0	0.020
653.5	0.021
654.0	0.021
654.5	0.021
655.0	0.022
655.5	0.022
656.0	0.022
656.5	0.021
657.0	0.021
657.5	0.021
658.0	0.021
658.5	0.021
659.0	0.020
659.5	0.020
660.0	0.020
660.5	0.020
661.0	0.019
661.5	0.017
662.0	0.016
662.5	0.016
663.0	0.017
663.5	0.018
664.0	0.018
664.5	0.018
665.0	0.018
665.5	0.017
666.0	0.016
666.5	0.015
667.0	0.014
667.5	0.014
668.0	0.014
668.5	0.014
669.0	0.013
669.5	0.013
670.0	0.014
670.5	0.013
671.0	0.012
671.5	0.012
672.0	0.012
672.5	0.012
673.0	0.012
673.5	0.012
674.0	0.011
674.5	0.011
675.0	0.012
675.5	0.012
676.0	0.011
676.5	0.011
677.0	0.011
677.5	0.011
678.0	0.011
678.5	0.011
679.0	0.010
679.5	0.011
680.0	0.012
680.5	0.013
681.0	0.013
681.5	0.012
682.0	0.011
682.5	0.010
683.0	0.009
683.5	0.008
684.0	0.008
684.5	0.008
685.0	0.009
685.5	0.010
686.0	0.009
686.5	0.009
687.0	0.009
687.5	0.008
688.0	0.008
688.5	0.008
689.0	0.008
689.5	0.008
690.0	0.007
690.5	0.007
691.0	0.007
691.5	0.007
692.0	0.007
692.5	0.007
693.0	0.008
693.5	0.009
694.0	0.009
694.5	0.008
695.0	0.007
695.5	0.006
696.0	0.006
696.5	0.006
697.0	0.007
697.5	0.007
698.0	0.008
698.5	0.008
699.0	0.008
699.5	0.007
700.0	0.006
700.5	0.005
701.0	0.005
701.5	0.005
702.0	0.006
702.5	0.006
703.0	0.006
703.5	0.006
704.0	0.006
704.5	0.006
705.0	0.004
705.5	0.004
706.0	0.004
706.5	0.005
707.0	0.005
707.5	0.005
708.0	0.006
708.5	0.006
709.0	0.006
709.5	0.006
710.0	0.005
710.5	0.005
711.0	0.005
711.5	0.005
712.0	0.005
712.5	0.004
713.0	0.004
713.5	0.005
714.0	0.005
714.5	0.005
715.0	0.006
715.5	0.007
716.0	0.007
716.5	0.006
717.0	0.006
717.5	0.006
718.0	0.006
718.5	0.005
719.0	0.004
719.5	0.003
720.0	0.004
720.5	0.003
721.0	0.003
721.5	0.003
722.0	0.003
722.5	0.003
723.0	0.004
723.5	0.003
724.0	0.003
724.5	0.003
725.0	0.003
725.5	0.003
726.0	0.004
726.5	0.004
727.0	0.003
727.5	0.002
728.0	0.003
728.5	0.003
729.0	0.003
729.5	0.004
730.0	0.004
730.5	0.003
731.0	0.003
731.5	0.002
732.0	0.002
732.5	0.001
733.0	0.001
733.5	0.001
734.0	0.001
734.5	0.000
735.0	0.000
735.5	0.000
736.0	0.000
736.5	0.001
737.0	0.001
737.5	0.002
738.0	0.002
738.5	0.002
739.0	0.002
739.5	0.002
740.0	0.002
740.5	0.003
741.0	0.003
741.5	0.003
742.0	0.003
742.5	0.002
743.0	0.001
743.5	0.001
744.0	0.001
744.5	0.001
745.0	0.002
745.5	0.002
746.0	0.002
746.5	0.002
747.0	0.001
747.5	0.000
748.0	-0.001
748.5	-0.002
749.0	-0.002
749.5	-0.001
750.0	0.000
750.5	0.000
751.0	0.001
751.5	0.002
752.0	0.001
752.5	0.001
753.0	-0.001
753.5	-0.001
754.0	-0.001
754.5	0.000
755.0	0.001
755.5	0.001
756.0	0.002
756.5	0.002
757.0	0.002
757.5	0.001
758.0	0.000
758.5	0.000
759.0	0.000
759.5	0.000
760.0	0.000
760.5	0.001
761.0	0.001
761.5	0.001
762.0	0.000
762.5	0.000
763.0	-0.001
763.5	-0.001
764.0	-0.002
764.5	-0.001
765.0	-0.001
765.5	0.000
766.0	0.001
766.5	0.001
767.0	0.000
767.5	0.000
768.0	0.000
768.5	0.000
769.0	-0.001
769.5	-0.001
770.0	-0.001
770.5	-0.001
771.0	-0.002
771.5	-0.003
772.0	-0.004
772.5	-0.004
773.0	-0.005
773.5	-0.005
774.0	-0.004
774.5	-0.004
775.0	-0.003
775.5	-0.003
776.0	-0.002
776.5	-0.003
777.0	-0.004
777.5	-0.004
778.0	-0.005
778.5	-0.004
779.0	-0.003
779.5	-0.002
780.0	-0.001
780.5	0.000
781.0	0.000
781.5	-0.001
782.0	-0.001
782.5	-0.002
783.0	-0.002
783.5	-0.002
784.0	-0.002
784.5	-0.001
785.0	0.000
785.5	0.000
786.0	0.000
786.5	0.000
787.0	-0.001
787.5	-0.002
788.0	-0.003
788.5	-0.004
789.0	-0.005
789.5	-0.004
790.0	-0.003
790.5	-0.002
791.0	-0.002
791.5	-0.002
792.0	-0.002
792.5	-0.001
793.0	-0.001
793.5	-0.001
794.0	0.000
794.5	0.000
795.0	0.001
795.5	0.000
796.0	0.000
796.5	-0.001
797.0	-0.002
797.5	-0.003
798.0	-0.003
798.5	-0.003
799.0	-0.002
799.5	-0.002
800.0	-0.001
800.5	-0.001
801.0	-0.002
801.5	-0.003
802.0	-0.004
802.5	-0.004
803.0	-0.004
803.5	-0.004
804.0	-0.005
804.5	-0.005
805.0	-0.005
805.5	-0.006
806.0	-0.006
806.5	-0.006
807.0	-0.005
807.5	-0.003
808.0	-0.002
808.5	-0.001
809.0	-0.001
809.5	-0.001
810.0	-0.002
810.5	-0.004
811.0	-0.004
811.5	-0.005
812.0	-0.004
812.5	-0.004
813.0	-0.004
813.5	-0.003
814.0	-0.003
814.5	-0.004
815.0	-0.004
815.5	-0.004
816.0	-0.004
816.5	-0.003
817.0	-0.004
817.5	-0.004
818.0	-0.004
818.5	-0.004
819.0	-0.005
819.5	-0.005
820.0	-0.005
820.5	-0.004
821.0	-0.004
821.5	-0.003
822.0	-0.003
822.5	-0.002
823.0	-0.002
823.5	-0.002
824.0	-0.002
824.5	-0.002
825.0	-0.004
825.5	-0.004
826.0	-0.005
826.5	-0.005
827.0	-0.004
827.5	-0.004
828.0	-0.005
828.5	-0.005
829.0	-0.005
829.5	-0.005
830.0	-0.005
830.5	-0.006
831.0	-0.006
831.5	-0.006
832.0	-0.007
832.5	-0.007
833.0	-0.007
833.5	-0.007
834.0	-0.007
834.5	-0.006
835.0	-0.004
835.5	-0.003
836.0	-0.002
836.5	-0.003
837.0	-0.003
837.5	-0.003
838.0	-0.003
838.5	-0.004
839.0	-0.004
839.5	-0.005
840.0	-0.005
840.5	-0.005
841.0	-0.005
841.5	-0.006
842.0	-0.007
842.5	-0.007
843.0	-0.007
843.5	-0.007
844.0	-0.007
844.5	-0.008
845.0	-0.008
845.5	-0.007
846.0	-0.005
846.5	-0.005
847.0	-0.005
847.5	-0.003
848.0	-0.003
848.5	-0.005
849.0	-0.006
849.5	-0.008
850.0	-0.009