File: crystal_redox_state/swissfelxtalspectrapretravel.tsv
7/8/2000 7:16 AM
Wavelength (nm)	10mm Absorbance
//WLCalib: Shift 	0.04333
//WLCalib: 261S 	-0.46000
//WLCalib: 362S 	-0.29000
//WLCalib: 484S 	-0.24000
//WLCalib: 529S 	-0.30000
//WLCalib: 823S 	-0.76000
//QSpecEnd:
190.0	0.221
190.5	0.228
191.0	0.235
191.5	0.238
192.0	0.247
192.5	0.256
193.0	0.272
193.5	0.263
194.0	0.252
194.5	0.241
195.0	0.222
195.5	0.213
196.0	0.184
196.5	0.170
197.0	0.163
197.5	0.166
198.0	0.183
198.5	0.156
199.0	0.161
199.5	0.146
200.0	0.112
200.5	0.113
201.0	0.101
201.5	0.107
202.0	0.130
202.5	0.146
203.0	0.142
203.5	0.154
204.0	0.163
204.5	0.142
205.0	0.135
205.5	0.179
206.0	0.156
206.5	0.167
207.0	0.187
207.5	0.205
208.0	0.221
208.5	0.201
209.0	0.177
209.5	0.141
210.0	0.153
210.5	0.137
211.0	0.110
211.5	0.145
212.0	0.217
212.5	0.290
213.0	0.351
213.5	0.373
214.0	0.439
214.5	0.505
215.0	0.581
215.5	0.640
216.0	0.711
216.5	0.796
217.0	0.894
217.5	0.963
218.0	1.032
218.5	1.106
219.0	1.178
219.5	1.268
220.0	1.331
220.5	1.395
221.0	1.445
221.5	1.502
222.0	1.561
222.5	1.620
223.0	1.682
223.5	1.747
224.0	1.820
224.5	1.902
225.0	1.951
225.5	2.019
226.0	2.097
226.5	2.189
227.0	2.291
227.5	2.392
228.0	2.483
228.5	2.556
229.0	2.605
229.5	2.628
230.0	2.623
230.5	2.595
231.0	2.557
231.5	2.517
232.0	2.485
232.5	2.452
233.0	2.420
233.5	2.394
234.0	2.377
234.5	2.368
235.0	2.359
235.5	2.344
236.0	2.328
236.5	2.312
237.0	2.301
237.5	2.281
238.0	2.263
238.5	2.252
239.0	2.252
239.5	2.264
240.0	2.288
240.5	2.326
241.0	2.380
241.5	2.436
242.0	2.477
242.5	2.498
243.0	2.503
243.5	2.500
244.0	2.482
244.5	2.453
245.0	2.436
245.5	2.450
246.0	2.494
246.5	2.550
247.0	2.593
247.5	2.632
248.0	2.666
248.5	2.664
249.0	2.629
249.5	2.574
250.0	2.530
250.5	2.504
251.0	2.497
251.5	2.502
252.0	2.510
252.5	2.513
253.0	2.505
253.5	2.468
254.0	2.437
254.5	2.398
255.0	2.367
255.5	2.349
256.0	2.349
256.5	2.362
257.0	2.375
257.5	2.389
258.0	2.416
258.5	2.455
259.0	2.507
259.5	2.545
260.0	2.577
260.5	2.596
261.0	2.595
261.5	2.573
262.0	2.529
262.5	2.490
263.0	2.450
263.5	2.417
264.0	2.395
264.5	2.386
265.0	2.384
265.5	2.400
266.0	2.413
266.5	2.425
267.0	2.448
267.5	2.465
268.0	2.478
268.5	2.496
269.0	2.492
269.5	2.502
270.0	2.520
270.5	2.559
271.0	2.603
271.5	2.630
272.0	2.651
272.5	2.635
273.0	2.642
273.5	2.614
274.0	2.548
274.5	2.515
275.0	2.520
275.5	2.537
276.0	2.590
276.5	2.600
277.0	2.608
277.5	2.561
278.0	2.525
278.5	2.433
279.0	2.364
279.5	2.317
280.0	2.293
280.5	2.282
281.0	2.272
281.5	2.256
282.0	2.236
282.5	2.179
283.0	2.135
283.5	2.083
284.0	2.040
284.5	1.991
285.0	1.947
285.5	1.895
286.0	1.828
286.5	1.782
287.0	1.732
287.5	1.682
288.0	1.636
288.5	1.587
289.0	1.543
289.5	1.505
290.0	1.466
290.5	1.421
291.0	1.378
291.5	1.332
292.0	1.276
292.5	1.212
293.0	1.143
293.5	1.070
294.0	0.998
294.5	0.927
295.0	0.860
295.5	0.799
296.0	0.742
296.5	0.690
297.0	0.643
297.5	0.601
298.0	0.563
298.5	0.529
299.0	0.499
299.5	0.470
300.0	0.443
300.5	0.418
301.0	0.396
301.5	0.375
302.0	0.355
302.5	0.337
303.0	0.319
303.5	0.304
304.0	0.289
304.5	0.275
305.0	0.262
305.5	0.250
306.0	0.238
306.5	0.228
307.0	0.219
307.5	0.211
308.0	0.204
308.5	0.197
309.0	0.190
309.5	0.185
310.0	0.179
310.5	0.174
311.0	0.170
311.5	0.166
312.0	0.163
312.5	0.160
313.0	0.157
313.5	0.154
314.0	0.152
314.5	0.150
315.0	0.148
315.5	0.146
316.0	0.143
316.5	0.141
317.0	0.139
317.5	0.137
318.0	0.136
318.5	0.134
319.0	0.133
319.5	0.132
320.0	0.130
320.5	0.129
321.0	0.129
321.5	0.128
322.0	0.128
322.5	0.128
323.0	0.127
323.5	0.126
324.0	0.125
324.5	0.124
325.0	0.123
325.5	0.122
326.0	0.122
326.5	0.122
327.0	0.121
327.5	0.121
328.0	0.120
328.5	0.120
329.0	0.120
329.5	0.120
330.0	0.120
330.5	0.120
331.0	0.119
331.5	0.119
332.0	0.119
332.5	0.119
333.0	0.120
333.5	0.120
334.0	0.120
334.5	0.121
335.0	0.121
335.5	0.121
336.0	0.121
336.5	0.121
337.0	0.121
337.5	0.121
338.0	0.122
338.5	0.122
339.0	0.122
339.5	0.122
340.0	0.122
340.5	0.122
341.0	0.122
341.5	0.122
342.0	0.122
342.5	0.123
343.0	0.124
343.5	0.124
344.0	0.125
344.5	0.125
345.0	0.125
345.5	0.126
346.0	0.126
346.5	0.126
347.0	0.126
347.5	0.127
348.0	0.127
348.5	0.127
349.0	0.127
349.5	0.127
350.0	0.128
350.5	0.129
351.0	0.129
351.5	0.130
352.0	0.130
352.5	0.130
353.0	0.130
353.5	0.131
354.0	0.131
354.5	0.131
355.0	0.131
355.5	0.131
356.0	0.132
356.5	0.132
357.0	0.132
357.5	0.132
358.0	0.133
358.5	0.133
359.0	0.133
359.5	0.133
360.0	0.133
360.5	0.133
361.0	0.133
361.5	0.133
362.0	0.133
362.5	0.133
363.0	0.134
363.5	0.134
364.0	0.134
364.5	0.134
365.0	0.134
365.5	0.134
366.0	0.134
366.5	0.134
367.0	0.134
367.5	0.134
368.0	0.133
368.5	0.133
369.0	0.132
369.5	0.132
370.0	0.131
370.5	0.131
371.0	0.131
371.5	0.131
372.0	0.131
372.5	0.130
373.0	0.130
373.5	0.129
374.0	0.128
374.5	0.128
375.0	0.127
375.5	0.127
376.0	0.127
376.5	0.127
377.0	0.126
377.5	0.126
378.0	0.125
378.5	0.125
379.0	0.125
379.5	0.124
380.0	0.123
380.5	0.123
381.0	0.123
381.5	0.123
382.0	0.122
382.5	0.122
383.0	0.121
383.5	0.121
384.0	0.120
384.5	0.120
385.0	0.120
385.5	0.119
386.0	0.118
386.5	0.118
387.0	0.117
387.5	0.116
388.0	0.116
388.5	0.115
389.0	0.114
389.5	0.114
390.0	0.113
390.5	0.112
391.0	0.111
391.5	0.111
392.0	0.110
392.5	0.109
393.0	0.108
393.5	0.108
394.0	0.108
394.5	0.107
395.0	0.107
395.5	0.106
396.0	0.106
396.5	0.105
397.0	0.105
397.5	0.104
398.0	0.104
398.5	0.103
399.0	0.103
399.5	0.103
400.0	0.102
400.5	0.101
401.0	0.101
401.5	0.100
402.0	0.100
402.5	0.099
403.0	0.099
403.5	0.099
404.0	0.099
404.5	0.098
405.0	0.098
405.5	0.098
406.0	0.097
406.5	0.097
407.0	0.096
407.5	0.096
408.0	0.095
408.5	0.095
409.0	0.094
409.5	0.094
410.0	0.093
410.5	0.093
411.0	0.092
411.5	0.092
412.0	0.091
412.5	0.091
413.0	0.090
413.5	0.090
414.0	0.090
414.5	0.089
415.0	0.089
415.5	0.089
416.0	0.089
416.5	0.088
417.0	0.088
417.5	0.088
418.0	0.087
418.5	0.087
419.0	0.086
419.5	0.086
420.0	0.086
420.5	0.085
421.0	0.085
421.5	0.084
422.0	0.085
422.5	0.085
423.0	0.084
423.5	0.084
424.0	0.084
424.5	0.084
425.0	0.084
425.5	0.083
426.0	0.083
426.5	0.083
427.0	0.082
427.5	0.082
428.0	0.081
428.5	0.081
429.0	0.081
429.5	0.080
430.0	0.079
430.5	0.079
431.0	0.079
431.5	0.078
432.0	0.078
432.5	0.078
433.0	0.078
433.5	0.078
434.0	0.078
434.5	0.078
435.0	0.078
435.5	0.078
436.0	0.078
436.5	0.078
437.0	0.077
437.5	0.077
438.0	0.077
438.5	0.076
439.0	0.076
439.5	0.076
440.0	0.076
440.5	0.075
441.0	0.074
441.5	0.074
442.0	0.073
442.5	0.073
443.0	0.073
443.5	0.073
444.0	0.073
444.5	0.073
445.0	0.073
445.5	0.074
446.0	0.073
446.5	0.073
447.0	0.073
447.5	0.073
448.0	0.072
448.5	0.072
449.0	0.071
449.5	0.071
450.0	0.071
450.5	0.071
451.0	0.071
451.5	0.071
452.0	0.071
452.5	0.070
453.0	0.070
453.5	0.069
454.0	0.069
454.5	0.069
455.0	0.069
455.5	0.069
456.0	0.069
456.5	0.069
457.0	0.069
457.5	0.069
458.0	0.068
458.5	0.068
459.0	0.068
459.5	0.067
460.0	0.067
460.5	0.067
461.0	0.067
461.5	0.067
462.0	0.067
462.5	0.067
463.0	0.067
463.5	0.066
464.0	0.066
464.5	0.066
465.0	0.066
465.5	0.065
466.0	0.065
466.5	0.065
467.0	0.065
467.5	0.064
468.0	0.064
468.5	0.064
469.0	0.064
469.5	0.064
470.0	0.064
470.5	0.064
471.0	0.064
471.5	0.064
472.0	0.064
472.5	0.064
473.0	0.063
473.5	0.063
474.0	0.063
474.5	0.063
475.0	0.063
475.5	0.062
476.0	0.062
476.5	0.062
477.0	0.062
477.5	0.062
478.0	0.061
478.5	0.061
479.0	0.061
479.5	0.061
480.0	0.060
480.5	0.061
481.0	0.061
481.5	0.061
482.0	0.062
482.5	0.062
483.0	0.062
483.5	0.062
484.0	0.062
484.5	0.063
485.0	0.063
485.5	0.063
486.0	0.063
486.5	0.062
487.0	0.061
487.5	0.061
488.0	0.060
488.5	0.060
489.0	0.060
489.5	0.060
490.0	0.060
490.5	0.060
491.0	0.060
491.5	0.060
492.0	0.060
492.5	0.060
493.0	0.060
493.5	0.060
494.0	0.060
494.5	0.060
495.0	0.060
495.5	0.060
496.0	0.059
496.5	0.059
497.0	0.058
497.5	0.058
498.0	0.058
498.5	0.059
499.0	0.059
499.5	0.059
500.0	0.059
500.5	0.059
501.0	0.059
501.5	0.059
502.0	0.058
502.5	0.058
503.0	0.059
503.5	0.059
504.0	0.059
504.5	0.059
505.0	0.059
505.5	0.059
506.0	0.059
506.5	0.058
507.0	0.058
507.5	0.058
508.0	0.058
508.5	0.057
509.0	0.057
509.5	0.057
510.0	0.056
510.5	0.057
511.0	0.057
511.5	0.057
512.0	0.057
512.5	0.057
513.0	0.058
513.5	0.057
514.0	0.057
514.5	0.056
515.0	0.056
515.5	0.057
516.0	0.057
516.5	0.057
517.0	0.057
517.5	0.057
518.0	0.057
518.5	0.057
519.0	0.057
519.5	0.057
520.0	0.057
520.5	0.057
521.0	0.057
521.5	0.057
522.0	0.057
522.5	0.057
523.0	0.057
523.5	0.057
524.0	0.057
524.5	0.056
525.0	0.056
525.5	0.056
526.0	0.056
526.5	0.056
527.0	0.057
527.5	0.057
528.0	0.058
528.5	0.058
529.0	0.057
529.5	0.057
530.0	0.056
530.5	0.056
531.0	0.055
531.5	0.055
532.0	0.056
532.5	0.056
533.0	0.057
533.5	0.057
534.0	0.057
534.5	0.056
535.0	0.056
535.5	0.055
536.0	0.055
536.5	0.055
537.0	0.055
537.5	0.055
538.0	0.055
538.5	0.056
539.0	0.056
539.5	0.056
540.0	0.056
540.5	0.056
541.0	0.056
541.5	0.056
542.0	0.055
542.5	0.055
543.0	0.055
543.5	0.054
544.0	0.054
544.5	0.054
545.0	0.054
545.5	0.054
546.0	0.055
546.5	0.055
547.0	0.055
547.5	0.055
548.0	0.055
548.5	0.055
549.0	0.054
549.5	0.054
550.0	0.054
550.5	0.054
551.0	0.054
551.5	0.054
552.0	0.055
552.5	0.055
553.0	0.055
553.5	0.055
554.0	0.054
554.5	0.054
555.0	0.054
555.5	0.054
556.0	0.054
556.5	0.053
557.0	0.053
557.5	0.053
558.0	0.053
558.5	0.053
559.0	0.053
559.5	0.053
560.0	0.053
560.5	0.053
561.0	0.053
561.5	0.053
562.0	0.053
562.5	0.052
563.0	0.053
563.5	0.053
564.0	0.053
564.5	0.054
565.0	0.054
565.5	0.054
566.0	0.054
566.5	0.054
567.0	0.054
567.5	0.053
568.0	0.053
568.5	0.052
569.0	0.052
569.5	0.052
570.0	0.052
570.5	0.052
571.0	0.052
571.5	0.053
572.0	0.053
572.5	0.053
573.0	0.052
573.5	0.051
574.0	0.051
574.5	0.052
575.0	0.052
575.5	0.051
576.0	0.051
576.5	0.051
577.0	0.051
577.5	0.051
578.0	0.051
578.5	0.051
579.0	0.052
579.5	0.052
580.0	0.052
580.5	0.052
581.0	0.052
581.5	0.051
582.0	0.051
582.5	0.051
583.0	0.050
583.5	0.050
584.0	0.050
584.5	0.050
585.0	0.050
585.5	0.051
586.0	0.051
586.5	0.052
587.0	0.052
587.5	0.052
588.0	0.051
588.5	0.051
589.0	0.051
589.5	0.051
590.0	0.051
590.5	0.051
591.0	0.050
591.5	0.050
592.0	0.050
592.5	0.049
593.0	0.049
593.5	0.048
594.0	0.049
594.5	0.049
595.0	0.049
595.5	0.050
596.0	0.050
596.5	0.050
597.0	0.051
597.5	0.050
598.0	0.050
598.5	0.049
599.0	0.049
599.5	0.049
600.0	0.050
600.5	0.049
601.0	0.049
601.5	0.049
602.0	0.050
602.5	0.050
603.0	0.050
603.5	0.050
604.0	0.050
604.5	0.050
605.0	0.050
605.5	0.049
606.0	0.049
606.5	0.048
607.0	0.049
607.5	0.049
608.0	0.049
608.5	0.050
609.0	0.050
609.5	0.051
610.0	0.051
610.5	0.050
611.0	0.050
611.5	0.050
612.0	0.049
612.5	0.050
613.0	0.049
613.5	0.049
614.0	0.050
614.5	0.050
615.0	0.050
615.5	0.050
616.0	0.050
616.5	0.049
617.0	0.049
617.5	0.049
618.0	0.048
618.5	0.048
619.0	0.048
619.5	0.048
620.0	0.049
620.5	0.049
621.0	0.049
621.5	0.049
622.0	0.049
622.5	0.049
623.0	0.049
623.5	0.048
624.0	0.048
624.5	0.048
625.0	0.049
625.5	0.049
626.0	0.050
626.5	0.050
627.0	0.050
627.5	0.049
628.0	0.048
628.5	0.047
629.0	0.047
629.5	0.046
630.0	0.047
630.5	0.048
631.0	0.049
631.5	0.049
632.0	0.050
632.5	0.050
633.0	0.050
633.5	0.050
634.0	0.050
634.5	0.049
635.0	0.049
635.5	0.049
636.0	0.048
636.5	0.047
637.0	0.046
637.5	0.046
638.0	0.046
638.5	0.046
639.0	0.047
639.5	0.048
640.0	0.050
640.5	0.051
641.0	0.051
641.5	0.051
642.0	0.050
642.5	0.050
643.0	0.049
643.5	0.049
644.0	0.049
644.5	0.048
645.0	0.048
645.5	0.048
646.0	0.047
646.5	0.047
647.0	0.047
647.5	0.047
648.0	0.047
648.5	0.048
649.0	0.048
649.5	0.048
650.0	0.047
650.5	0.047
651.0	0.047
651.5	0.047
652.0	0.047
652.5	0.047
653.0	0.047
653.5	0.048
654.0	0.048
654.5	0.048
655.0	0.048
655.5	0.048
656.0	0.048
656.5	0.048
657.0	0.047
657.5	0.046
658.0	0.045
658.5	0.044
659.0	0.044
659.5	0.044
660.0	0.043
660.5	0.044
661.0	0.045
661.5	0.046
662.0	0.046
662.5	0.046
663.0	0.047
663.5	0.048
664.0	0.048
664.5	0.048
665.0	0.048
665.5	0.048
666.0	0.048
666.5	0.048
667.0	0.047
667.5	0.046
668.0	0.046
668.5	0.046
669.0	0.046
669.5	0.046
670.0	0.046
670.5	0.047
671.0	0.047
671.5	0.047
672.0	0.047
672.5	0.047
673.0	0.046
673.5	0.045
674.0	0.045
674.5	0.045
675.0	0.045
675.5	0.045
676.0	0.046
676.5	0.047
677.0	0.048
677.5	0.048
678.0	0.048
678.5	0.047
679.0	0.046
679.5	0.046
680.0	0.046
680.5	0.045
681.0	0.045
681.5	0.045
682.0	0.046
682.5	0.046
683.0	0.045
683.5	0.045
684.0	0.045
684.5	0.045
685.0	0.045
685.5	0.044
686.0	0.044
686.5	0.045
687.0	0.045
687.5	0.044
688.0	0.044
688.5	0.044
689.0	0.044
689.5	0.043
690.0	0.042
690.5	0.042
691.0	0.042
691.5	0.043
692.0	0.043
692.5	0.043
693.0	0.043
693.5	0.043
694.0	0.043
694.5	0.043
695.0	0.043
695.5	0.043
696.0	0.044
696.5	0.043
697.0	0.043
697.5	0.043
698.0	0.043
698.5	0.043
699.0	0.043
699.5	0.043
700.0	0.042
700.5	0.042
701.0	0.042
701.5	0.042
702.0	0.041
702.5	0.042
703.0	0.042
703.5	0.043
704.0	0.044
704.5	0.045
705.0	0.046
705.5	0.047
706.0	0.047
706.5	0.047
707.0	0.046
707.5	0.045
708.0	0.045
708.5	0.045
709.0	0.044
709.5	0.045
710.0	0.045
710.5	0.045
711.0	0.045
711.5	0.044
712.0	0.044
712.5	0.043
713.0	0.043
713.5	0.043
714.0	0.042
714.5	0.042
715.0	0.041
715.5	0.041
716.0	0.041
716.5	0.041
717.0	0.041
717.5	0.042
718.0	0.042
718.5	0.042
719.0	0.043
719.5	0.043
720.0	0.042
720.5	0.042
721.0	0.042
721.5	0.041
722.0	0.041
722.5	0.041
723.0	0.041
723.5	0.041
724.0	0.042
724.5	0.042
725.0	0.042
725.5	0.042
726.0	0.042
726.5	0.042
727.0	0.043
727.5	0.044
728.0	0.045
728.5	0.045
729.0	0.045
729.5	0.044
730.0	0.044
730.5	0.043
731.0	0.043
731.5	0.043
732.0	0.044
732.5	0.045
733.0	0.045
733.5	0.045
734.0	0.044
734.5	0.044
735.0	0.043
735.5	0.042
736.0	0.042
736.5	0.043
737.0	0.044
737.5	0.044
738.0	0.045
738.5	0.044
739.0	0.044
739.5	0.043
740.0	0.042
740.5	0.042
741.0	0.041
741.5	0.041
742.0	0.042
742.5	0.041
743.0	0.041
743.5	0.040
744.0	0.040
744.5	0.041
745.0	0.042
745.5	0.042
746.0	0.043
746.5	0.043
747.0	0.043
747.5	0.043
748.0	0.043
748.5	0.042
749.0	0.042
749.5	0.041
750.0	0.040
750.5	0.040
751.0	0.040
751.5	0.041
752.0	0.042
752.5	0.043
753.0	0.044
753.5	0.044
754.0	0.043
754.5	0.042
755.0	0.041
755.5	0.040
756.0	0.040
756.5	0.039
757.0	0.039
757.5	0.038
758.0	0.038
758.5	0.038
759.0	0.037
759.5	0.038
760.0	0.038
760.5	0.038
761.0	0.039
761.5	0.040
762.0	0.040
762.5	0.042
763.0	0.042
763.5	0.043
764.0	0.043
764.5	0.043
765.0	0.042
765.5	0.041
766.0	0.040
766.5	0.040
767.0	0.039
767.5	0.039
768.0	0.040
768.5	0.041
769.0	0.042
769.5	0.043
770.0	0.043
770.5	0.043
771.0	0.043
771.5	0.043
772.0	0.042
772.5	0.042
773.0	0.042
773.5	0.041
774.0	0.041
774.5	0.040
775.0	0.040
775.5	0.040
776.0	0.040
776.5	0.041
777.0	0.041
777.5	0.041
778.0	0.042
778.5	0.043
779.0	0.044
779.5	0.044
780.0	0.043
780.5	0.042
781.0	0.041
781.5	0.040
782.0	0.040
782.5	0.040
783.0	0.041
783.5	0.041
784.0	0.041
784.5	0.041
785.0	0.040
785.5	0.039
786.0	0.039
786.5	0.040
787.0	0.041
787.5	0.041
788.0	0.042
788.5	0.042
789.0	0.042
789.5	0.042
790.0	0.042
790.5	0.042
791.0	0.042
791.5	0.043
792.0	0.043
792.5	0.043
793.0	0.042
793.5	0.041
794.0	0.040
794.5	0.039
795.0	0.038
795.5	0.036
796.0	0.036
796.5	0.036
797.0	0.036
797.5	0.036
798.0	0.037
798.5	0.037
799.0	0.039
799.5	0.040
800.0	0.040
800.5	0.039
801.0	0.039
801.5	0.039
802.0	0.038
802.5	0.038
803.0	0.038
803.5	0.037
804.0	0.037
804.5	0.035
805.0	0.035
805.5	0.034
806.0	0.034
806.5	0.034
807.0	0.035
807.5	0.037
808.0	0.037
808.5	0.037
809.0	0.037
809.5	0.037
810.0	0.038
810.5	0.038
811.0	0.038
811.5	0.039
812.0	0.039
812.5	0.040
813.0	0.040
813.5	0.041
814.0	0.041
814.5	0.040
815.0	0.040
815.5	0.038
816.0	0.038
816.5	0.038
817.0	0.038
817.5	0.037
818.0	0.038
818.5	0.038
819.0	0.038
819.5	0.039
820.0	0.039
820.5	0.039
821.0	0.041
821.5	0.041
822.0	0.041
822.5	0.041
823.0	0.041
823.5	0.040
824.0	0.039
824.5	0.038
825.0	0.038
825.5	0.039
826.0	0.039
826.5	0.040
827.0	0.039
827.5	0.038
828.0	0.038
828.5	0.037
829.0	0.037
829.5	0.036
830.0	0.036
830.5	0.036
831.0	0.037
831.5	0.037
832.0	0.036
832.5	0.036
833.0	0.036
833.5	0.036
834.0	0.036
834.5	0.037
835.0	0.036
835.5	0.037
836.0	0.037
836.5	0.037
837.0	0.037
837.5	0.037
838.0	0.037
838.5	0.036
839.0	0.037
839.5	0.038
840.0	0.039
840.5	0.040
841.0	0.040
841.5	0.040
842.0	0.040
842.5	0.039
843.0	0.037
843.5	0.035
844.0	0.036
844.5	0.036
845.0	0.037
845.5	0.037
846.0	0.038
846.5	0.039
847.0	0.040
847.5	0.041
848.0	0.041
848.5	0.040
849.0	0.040
849.5	0.038
850.0	0.037